Folder: python-course-material/data

Note: data/readme.md
# Data #


## Covid Case Data ##
* From https://github.com/jgehrcke/covid-19-germany-gae 
* obtained 2022-05-13

## Population Data ##
* From https://www.bpb.de/kurz-knapp/zahlen-und-fakten/soziale-situation-in-deutschland/61535/bevoelkerung-nach-bundeslaendern/
* obtained 2022-05-13

## Netflix Data ##
* From https://www.kaggle.com/datasets/ashishgup/netflix-rotten-tomatoes-metacritic-imdb (

## Katalysator data ##
* own measurements

## Math data ##
* Can't disclose, ask us by mail ;-)

File: Katalysator.txt
time/s	Ewe/V	<I>/mA	cycle number
1530.07	0.0763925	0.000613899	1
1535.27	0.0506415	-0.00040559	1
1539.27	0.030453	-0.000602895	1
1543.27	0.0104554	-0.000720114	1
1547.27	-0.00951161	-0.000800521	1
1551.27	-0.0298146	-0.000866482	1
1555.27	-0.049648	-0.000939181	1
1559.67	-0.0714438	-0.00107651	1
1563.67	-0.0916514	-0.00131718	1
1567.67	-0.111569	-0.00184698	1
1571.66	-0.131624	-0.00299973	1
1575.66	-0.151614	-0.00540016	1
1579.66	-0.171516	-0.00990341	1
1584.06	-0.193693	-0.0184059	1
1588.06	-0.213519	-0.0308885	1
1592.06	-0.233482	-0.0503753	1
1596.06	-0.253335	-0.079766	1
1600.46	-0.275512	-0.126088	1
1604.46	-0.295437	-0.17999	1
1608.46	-0.315527	-0.241898	1
1612.46	-0.33536	-0.306098	1
1616.46	-0.355552	-0.366522	1
1620.46	-0.375504	-0.41834	1
1624.46	-0.395353	-0.459145	1
1628.46	-0.415675	-0.490582	1
1632.46	-0.435447	-0.515211	1
1636.46	-0.455529	-0.533912	1
1640.46	-0.475507	-0.545825	1
1644.46	-0.495463	-0.553402	1
1648.46	-0.515552	-0.557332	1
1652.46	-0.535313	-0.561866	1
1656.46	-0.555383	-0.568666	1
1660.46	-0.575445	-0.577948	1
1664.46	-0.595485	-0.589807	1
1668.46	-0.61549	-0.60433	1
1672.46	-0.635301	-0.621056	1
1676.46	-0.655191	-0.638384	1
1680.46	-0.67567	-0.656323	1
1684.46	-0.695397	-0.671488	1
1688.46	-0.715547	-0.689005	1
1692.46	-0.73535	-0.70612	1
1696.46	-0.755641	-0.723046	1
1700.46	-0.775448	-0.738694	1
1704.46	-0.795339	-0.752675	1
1708.46	-0.815336	-0.769095	1
1712.46	-0.835578	-0.783387	1
1716.46	-0.855633	-0.795899	1
1720.46	-0.875306	-0.810328	1
1724.45	-0.895369	-0.822578	1
1728.45	-0.915473	-0.830259	1
1732.4	-0.91201	-0.826128	1
1736.4	-0.89194	-0.810509	1
1740.4	-0.87195	-0.793504	1
1744.4	-0.85188	-0.778255	1
1748.4	-0.832115	-0.761985	1
1752.4	-0.811992	-0.743093	1
1756.4	-0.792216	-0.722983	1
1760.4	-0.77221	-0.703155	1
1764.4	-0.752053	-0.682869	1
1768.4	-0.731898	-0.660985	1
1772.4	-0.712008	-0.640616	1
1776.4	-0.692121	-0.617411	1
1780.4	-0.672016	-0.596448	1
1784.4	-0.65216	-0.574736	1
1788.4	-0.632128	-0.55427	1
1792.4	-0.612218	-0.534467	1
1796.4	-0.59203	-0.518795	1
1800.4	-0.572059	-0.505482	1
1804.4	-0.552138	-0.496347	1
1808.4	-0.531858	-0.493116	1
1812.4	-0.512024	-0.489125	1
1816.4	-0.492076	-0.485096	1
1820.4	-0.472266	-0.477666	1
1824.4	-0.452135	-0.466375	1
1828.4	-0.432129	-0.448658	1
1832.4	-0.412155	-0.425737	1
1836.4	-0.392031	-0.396528	1
1840.4	-0.372114	-0.360819	1
1844.4	-0.352177	-0.319876	1
1848.4	-0.331989	-0.274012	1
1852.4	-0.312209	-0.225232	1
1856.4	-0.292074	-0.176428	1
1860.39	-0.271988	-0.130578	1
1864.39	-0.252071	-0.0912916	1
1868.39	-0.232169	-0.0606435	1
1872.79	-0.21019	-0.0366285	1
1876.79	-0.190124	-0.0220107	1
1880.79	-0.170057	-0.0123244	1
1884.79	-0.150113	-0.00630272	1
1889.19	-0.128127	-0.00267121	1
1893.19	-0.108159	-0.00100595	1
1897.59	-0.0862263	-8.14317e-05	1
1902.39	-0.0621093	0.000445195	1
1906.39	-0.0422033	0.000724542	1
1910.39	-0.0222134	0.000941378	1
1914.79	1.3771e-05	0.00116905	1
1918.79	0.0199579	0.00137171	1
1922.79	0.0398868	0.00160327	1
1926.79	0.0599607	0.00190365	1
1930.79	0.0722234	0.00115958	2
1935.59	0.0485646	-3.54299e-05	2
1939.99	0.0264596	-0.000435025	2
1943.99	0.00651165	-0.000640102	2
1947.99	-0.0136081	-0.00077777	2
1951.99	-0.0336057	-0.00089209	2
1955.99	-0.0535345	-0.00101224	2
1960.39	-0.0754906	-0.0012252	2
1964.39	-0.0955722	-0.00161457	2
1968.39	-0.115661	-0.00243059	2
1972.39	-0.135533	-0.00416236	2
1976.38	-0.155393	-0.00763948	2
1980.78	-0.177357	-0.0147992	2
1984.78	-0.197553	-0.0255746	2
1988.78	-0.217421	-0.0420985	2
1992.78	-0.237399	-0.0665547	2
1996.78	-0.257611	-0.100381	2
2001.18	-0.279273	-0.147763	2
2005.18	-0.299748	-0.196947	2
2009.18	-0.319512	-0.248039	2
2013.18	-0.339437	-0.297998	2
2017.18	-0.359378	-0.343757	2
2021.18	-0.37965	-0.383919	2
2025.18	-0.399438	-0.418086	2
2029.18	-0.41955	-0.446366	2
2033.18	-0.439452	-0.468663	2
2037.18	-0.459568	-0.483298	2
2041.18	-0.479768	-0.492421	2
2045.18	-0.499586	-0.498561	2
2049.18	-0.5195	-0.50135	2
2053.18	-0.539413	-0.505053	2
2057.18	-0.559613	-0.509404	2
2061.18	-0.579523	-0.517637	2
2065.18	-0.599551	-0.53127	2
2069.18	-0.619579	-0.547479	2
2073.18	-0.639401	-0.565879	2
2077.18	-0.659715	-0.58665	2
2081.18	-0.679438	-0.606318	2
2085.18	-0.699566	-0.627949	2
2089.18	-0.719506	-0.647287	2
2093.18	-0.73961	-0.667733	2
2097.18	-0.759593	-0.68638	2
2101.18	-0.77951	-0.707487	2
2105.18	-0.799424	-0.7247	2
2109.18	-0.819456	-0.741894	2
2113.18	-0.839602	-0.758564	2
2117.18	-0.85947	-0.775874	2
2121.18	-0.879613	-0.789209	2
2125.18	-0.899488	-0.803376	2
2129.17	-0.919638	-0.813509	2
2133.12	-0.908067	-0.804881	2
2137.12	-0.888084	-0.789906	2
2141.12	-0.86788	-0.773699	2
2145.12	-0.848269	-0.757245	2
2149.12	-0.828004	-0.74074	2
2153.12	-0.808029	-0.721059	2
2157.12	-0.787974	-0.703279	2
2161.12	-0.768343	-0.682456	2
2165.12	-0.748246	-0.663339	2
2169.12	-0.727962	-0.641753	2
2173.12	-0.708205	-0.620701	2
2177.12	-0.688105	-0.599715	2
2181.12	-0.668073	-0.577307	2
2185.12	-0.648037	-0.553995	2
2189.12	-0.627955	-0.535336	2
2193.12	-0.608187	-0.515854	2
2197.12	-0.587968	-0.499908	2
2201.12	-0.568165	-0.489686	2
2205.12	-0.547931	-0.483683	2
2209.12	-0.528139	-0.480949	2
2213.12	-0.50821	-0.480094	2
2217.12	-0.488045	-0.477731	2
2221.12	-0.467963	-0.469803	2
2225.12	-0.448053	-0.457332	2
2229.12	-0.428056	-0.438862	2
2233.12	-0.408314	-0.4152	2
2237.12	-0.388232	-0.385437	2
2241.12	-0.368139	-0.348616	2
2245.12	-0.34813	-0.306979	2
2249.12	-0.328003	-0.260639	2
2253.12	-0.308013	-0.211987	2
2257.12	-0.288229	-0.16352	2
2261.12	-0.268159	-0.119138	2
2265.11	-0.248154	-0.0819916	2
2269.11	-0.228061	-0.0535978	2
2273.51	-0.206128	-0.0319244	2
2277.51	-0.186019	-0.0189154	2
2281.51	-0.166205	-0.0104377	2
2285.51	-0.146188	-0.00527386	2
2289.91	-0.124083	-0.00220974	2
2293.91	-0.103964	-0.00078997	2
2298.71	-0.0802552	8.76794e-05	2
2303.11	-0.0581121	0.000545535	2
2307.11	-0.0380992	0.000827021	2
2311.51	-0.0159904	0.00108931	2
2315.51	0.00383156	0.00130944	2
2319.51	0.0239093	0.00152626	2
2323.51	0.0439489	0.00177077	2
2327.51	0.0638052	0.00207121	2
2331.51	0.0685202	0.000904964	3
2336.31	0.0443803	-2.6358e-05	3
2340.71	0.0225425	-0.000411767	3
2344.71	0.00264041	-0.000630022	3
2348.71	-0.0174793	-0.000787018	3
2352.71	-0.037622	-0.000916691	3
2357.11	-0.0594674	-0.00107895	3
2361.11	-0.0793504	-0.00131523	3
2365.11	-0.0994969	-0.0017684	3
2369.11	-0.119388	-0.00269527	3
2373.11	-0.139534	-0.00460349	3
2377.11	-0.15957	-0.00834571	3
2381.51	-0.181602	-0.0158407	3
2385.5	-0.201604	-0.0269897	3
2389.5	-0.221552	-0.0440882	3
2393.5	-0.241328	-0.0692824	3
2397.9	-0.26341	-0.108451	3
2401.9	-0.283381	-0.151572	3
2405.9	-0.303623	-0.200418	3
2409.9	-0.323628	-0.250728	3
2413.9	-0.343637	-0.299356	3
2417.9	-0.363417	-0.343866	3
2421.9	-0.383376	-0.382054	3
2425.9	-0.403511	-0.414757	3
2429.9	-0.423345	-0.441131	3
2433.9	-0.443587	-0.461258	3
2437.9	-0.463432	-0.47544	3
2441.9	-0.483418	-0.483506	3
2445.9	-0.503549	-0.48687	3
2449.9	-0.523382	-0.487673	3
2453.9	-0.543613	-0.489511	3
2457.9	-0.563633	-0.493061	3
2461.9	-0.583623	-0.502374	3
2465.9	-0.60351	-0.516111	3
2469.9	-0.62345	-0.533101	3
2473.9	-0.643589	-0.552221	3
2477.9	-0.663468	-0.571931	3
2481.9	-0.683393	-0.592774	3
2485.9	-0.703582	-0.613544	3
2489.9	-0.723553	-0.635754	3
2493.9	-0.743348	-0.656821	3
2497.9	-0.763441	-0.673686	3
2501.9	-0.783691	-0.693045	3
2505.9	-0.803574	-0.713148	3
2509.9	-0.823418	-0.73122	3
2513.9	-0.843328	-0.747898	3
2517.9	-0.863563	-0.764583	3
2521.9	-0.883709	-0.778879	3
2525.9	-0.903352	-0.794373	3
2529.84	-0.923235	-0.803957	3
2533.84	-0.90402	-0.786979	3
2537.84	-0.883843	-0.77405	3
2541.84	-0.86399	-0.758262	3
2545.84	-0.843962	-0.74175	3
2549.84	-0.824193	-0.724328	3
2553.84	-0.804058	-0.707112	3
2557.84	-0.78403	-0.688935	3
2561.84	-0.764098	-0.66819	3
2565.84	-0.744276	-0.649204	3
2569.84	-0.723954	-0.628529	3
2573.84	-0.704067	-0.607879	3
2577.84	-0.684069	-0.58586	3
2581.84	-0.664217	-0.565264	3
2585.84	-0.64407	-0.545793	3
2589.84	-0.624305	-0.521586	3
2593.84	-0.60393	-0.503787	3
2597.84	-0.584089	-0.488295	3
2601.84	-0.56403	-0.479559	3
2605.84	-0.543933	-0.474139	3
2609.84	-0.523982	-0.473401	3
2613.84	-0.503915	-0.472283	3
2617.84	-0.484105	-0.469796	3
2621.84	-0.463932	-0.461392	3
2625.84	-0.444159	-0.448965	3
2629.84	-0.424043	-0.429728	3
2633.84	-0.404164	-0.404575	3
2637.84	-0.384186	-0.372833	3
2641.84	-0.364165	-0.335656	3
2645.84	-0.34408	-0.292577	3
2649.84	-0.324063	-0.245806	3
2653.84	-0.304226	-0.196965	3
2657.84	-0.284156	-0.149594	3
2661.84	-0.264143	-0.107154	3
2665.84	-0.244287	-0.0724844	3
2670.23	-0.221922	-0.0446142	3
2674.23	-0.202207	-0.0274875	3
2678.23	-0.182091	-0.0160777	3
2682.23	-0.162235	-0.00872879	3
2686.63	-0.140133	-0.00403373	3
2690.63	-0.120159	-0.00178361	3
2694.63	-0.100287	-0.000586111	3
2699.83	-0.0740284	0.000224142	3
2703.83	-0.0538667	0.000594011	3
2707.83	-0.0340562	0.000880053	3
2712.23	-0.0122184	0.00114977	3
2716.23	0.00797005	0.00137453	3
2720.23	0.0279829	0.00160363	3
2724.23	0.0480339	0.00185705	3
2728.23	0.067959	0.00215911	3
2729.83	0.075858	0.00232473	3

File: KatalysatorArgon.txt
time/s	Ewe/V	<I>/mA	cycle number
98.2492	0.0808972	0.00107902	1
101.949	0.0625006	-0.000587015	1
105.949	0.042444	-0.0011201	1
109.982	0.022298	-0.00134307	1
114.048	0.0019229	-0.00146463	1
118.215	-0.0188532	-0.00169172	1
122.414	-0.0398999	-0.00178511	1
126.681	-0.0612213	-0.00186558	1
130.814	-0.0818975	-0.0018782	1
135.28	-0.104174	-0.00195351	1
139.347	-0.124557	-0.0019257	1
143.513	-0.145391	-0.00197102	1
148.246	-0.169001	-0.00203568	1
152.279	-0.18919	-0.00212598	1
156.279	-0.209235	-0.002209	1
160.412	-0.229881	-0.00228899	1
164.479	-0.250149	-0.00240716	1
168.478	-0.270207	-0.0025198	1
172.478	-0.290151	-0.00260961	1
176.745	-0.311536	-0.00269838	1
181.144	-0.333489	-0.00279083	1
185.144	-0.353508	-0.00287321	1
189.144	-0.373511	-0.0029498	1
193.377	-0.394697	-0.00298189	1
197.41	-0.414834	-0.00310969	1
201.41	-0.434844	-0.00321146	1
205.41	-0.45482	-0.00332378	1
209.409	-0.474901	-0.00341059	1
213.409	-0.494855	-0.00347737	1
217.509	-0.51539	-0.00346626	1
221.675	-0.536187	-0.00365935	1
225.742	-0.556548	-0.00368755	1
230.408	-0.579858	-0.00392108	1
234.408	-0.599837	-0.00406275	1
238.408	-0.619849	-0.00421678	1
242.407	-0.639785	-0.00437681	1
246.407	-0.659832	-0.00456131	1
250.407	-0.679865	-0.0047626	1
254.407	-0.699868	-0.00496099	1
258.406	-0.719869	-0.00515854	1
262.406	-0.739902	-0.00538719	1
266.406	-0.759874	-0.00566771	1
270.406	-0.779872	-0.00602273	1
274.405	-0.799841	-0.00647793	1
278.405	-0.819848	-0.00702395	1
282.405	-0.839861	-0.00766518	1
286.405	-0.85984	-0.00843892	1
290.404	-0.87984	-0.00934134	1
294.404	-0.899849	-0.0103226	1
298.171	-0.918679	-0.011261	1
300.68	-0.907177	-0.00688437	1
304.679	-0.887123	-0.00462184	1
308.679	-0.867155	-0.00327219	1
312.679	-0.847146	-0.00232507	1
316.679	-0.827174	-0.0016237	1
320.678	-0.807193	-0.00076363	1
324.678	-0.787228	-0.000369897	1
328.678	-0.767174	-0.000107071	1
332.678	-0.747243	7.02551e-05	1
336.678	-0.727235	4.87201e-05	1
340.677	-0.707212	0.000236708	1
344.677	-0.687205	0.000264482	1
348.81	-0.666539	0.000297453	1
352.81	-0.646489	0.000366434	1
356.81	-0.626506	0.000359292	1
360.809	-0.606511	0.000393163	1
364.809	-0.586489	0.00043374	1
368.809	-0.566511	0.000474641	1
372.809	-0.546518	0.000518101	1
376.808	-0.526517	0.00055541	1
380.808	-0.506537	0.000592609	1
384.808	-0.486517	0.000617339	1
388.808	-0.466532	0.000618611	1
392.874	-0.446159	0.000514635	1
396.941	-0.425851	0.0006145	1
400.94	-0.405869	0.000604562	1
404.94	-0.385853	0.000592937	1
408.94	-0.365818	0.000585533	1
412.94	-0.345844	0.000578947	1
416.939	-0.325832	0.000594047	1
420.939	-0.305869	0.00061342	1
424.939	-0.285849	0.000638692	1
428.939	-0.26583	0.000671518	1
432.938	-0.245869	0.000712724	1
436.938	-0.225853	0.000759148	1
440.938	-0.20583	0.000806895	1
444.938	-0.185826	0.000857837	1
448.937	-0.165887	0.000919243	1
452.937	-0.145881	0.000998814	1
457.27	-0.124193	0.00110146	1
461.27	-0.104195	0.00122181	1
465.27	-0.0842169	0.0013814	1
469.27	-0.0641891	0.00155508	1
473.269	-0.0442323	0.00183841	1
477.536	-0.0228697	0.00219601	1
481.535	-0.00287969	0.00260479	1
485.535	0.0171961	0.00313143	1
489.535	0.0371211	0.00379839	1
493.535	0.0571371	0.00475473	1
497.535	0.0771729	0.0063425	1
500.071	0.0717913	0.00401872	2
504.137	0.0514905	0.00191	2
508.337	0.0304513	0.000854448	2
512.403	0.0101121	0.000278655	2
516.603	-0.0108862	-0.00016258	2
520.603	-0.030865	-0.00042709	2
524.603	-0.0508865	-0.000618372	2
528.602	-0.0708512	-0.000747836	2
532.602	-0.0908734	-0.000868804	2
536.668	-0.111226	-0.000947958	2
540.668	-0.131257	-0.00101934	2
544.668	-0.151257	-0.00107843	2
548.668	-0.171184	-0.00113702	2
552.801	-0.191854	-0.00119221	2
556.801	-0.211881	-0.00124958	2
560.8	-0.23183	-0.00130331	2
565.067	-0.253165	-0.00125945	2
569.4	-0.274842	-0.0014118	2
573.4	-0.294822	-0.00135154	2
577.399	-0.31485	-0.0014761	2
581.666	-0.336172	-0.00151376	2
585.666	-0.356237	-0.00154286	2
589.665	-0.376187	-0.00157303	2
593.665	-0.396235	-0.00159377	2
597.931	-0.417545	-0.00164231	2
601.931	-0.437546	-0.00156345	2
605.931	-0.457524	-0.00170746	2
609.931	-0.477559	-0.00173689	2
613.997	-0.497851	-0.00167811	2
618.064	-0.518197	-0.00180252	2
622.063	-0.538152	-0.00184266	2
626.063	-0.558188	-0.00190527	2
630.196	-0.57885	-0.00192558	2
634.263	-0.599183	-0.00188412	2
638.329	-0.619501	-0.00208217	2
642.329	-0.63953	-0.00216722	2
646.329	-0.659571	-0.00226617	2
650.328	-0.679528	-0.00238163	2
654.328	-0.699478	-0.00254637	2
658.328	-0.719507	-0.00254694	2
662.328	-0.739537	-0.00287552	2
666.394	-0.759895	-0.00314505	2
670.394	-0.779848	-0.00347365	2
674.394	-0.799816	-0.00388197	2
678.393	-0.819866	-0.00440172	2
682.393	-0.839866	-0.00501415	2
686.393	-0.859856	-0.00573724	2
690.393	-0.879799	-0.00660919	2
694.392	-0.899876	-0.00761546	2
698.159	-0.918665	-0.00866459	2
700.668	-0.907194	-0.00476864	2
704.668	-0.887126	-0.00302574	2
708.667	-0.867196	-0.00198475	2
712.667	-0.847161	-0.00124691	2
716.8	-0.826543	-0.000689542	2
720.8	-0.806468	-0.000278666	2
724.866	-0.786182	4.17695e-06	2
729	-0.765496	0.000213156	2
733.133	-0.744882	0.00033518	2
737.132	-0.724812	0.000423459	2
741.199	-0.704539	0.000260465	2
745.199	-0.684482	0.000459879	2
749.198	-0.664552	0.000495026	2
753.198	-0.644514	0.000521869	2
757.198	-0.624546	0.000553874	2
761.198	-0.604515	0.000585597	2
765.197	-0.584477	0.000613922	2
769.197	-0.564487	0.000635271	2
773.197	-0.544502	0.000657081	2
777.197	-0.524474	0.000670622	2
781.196	-0.504499	0.000670371	2
785.329	-0.48386	0.000684182	2
789.329	-0.46388	0.000673643	2
793.329	-0.443855	0.000677636	2
797.329	-0.423828	0.000566307	2
801.395	-0.4035	0.00048116	2
805.462	-0.3832	0.000602342	2
809.461	-0.363203	0.000595603	2
813.461	-0.34313	0.000590159	2
817.461	-0.323212	0.000604253	2
821.594	-0.302488	0.00061779	2
825.627	-0.282342	0.00056433	2
829.793	-0.261505	0.00066847	2
833.793	-0.24159	0.000706679	2
837.926	-0.220868	0.000742789	2
841.926	-0.200887	0.000782356	2
846.192	-0.179516	0.000826993	2
850.192	-0.159539	0.000870105	2
854.192	-0.139537	0.000939411	2
858.192	-0.119594	0.00102041	2
862.192	-0.0994935	0.00111318	2
866.191	-0.0794859	0.00123596	2
870.458	-0.0582542	0.00135203	2
874.457	-0.0382318	0.00161349	2
878.591	-0.017566	0.00189138	2
882.724	0.00313811	0.00216435	2
886.857	0.0238317	0.00271824	2
890.856	0.0438081	0.00331294	2
894.856	0.0638502	0.00420819	2
898.226	0.0810766	0.00768416	2
901.325	0.0654949	0.00246271	3
905.325	0.0454599	0.00120171	3
909.458	0.024822	0.00047877	3
913.458	0.00479186	3.64051e-05	3
917.524	-0.0155318	-0.000170025	3
921.724	-0.036532	-0.000462893	3
925.724	-0.0565431	-0.000599857	3
929.724	-0.0765095	-0.000705309	3
933.724	-0.096533	-0.000781852	3
937.723	-0.116579	-0.000843184	3
941.723	-0.136547	-0.000899258	3
945.723	-0.156511	-0.000945386	3
949.723	-0.176524	-0.000994339	3
953.722	-0.196509	-0.00103368	3
957.722	-0.216533	-0.00108133	3
961.722	-0.236592	-0.00112411	3
965.722	-0.256503	-0.0011671	3
969.721	-0.276538	-0.00120237	3
973.721	-0.296554	-0.0012403	3
977.721	-0.31651	-0.00126678	3
981.721	-0.336528	-0.00129576	3
985.987	-0.357873	-0.00132469	3
989.987	-0.377866	-0.00123179	3
993.987	-0.397903	-0.00137829	3
997.986	-0.417857	-0.00141096	3
1001.99	-0.437844	-0.00144348	3
1005.99	-0.45788	-0.00146638	3
1009.99	-0.47788	-0.001494	3
1013.99	-0.497887	-0.00143376	3
1017.99	-0.517879	-0.00155343	3
1021.98	-0.5378	-0.00158753	3
1025.98	-0.557848	-0.0016363	3
1029.98	-0.577827	-0.00168164	3
1033.98	-0.597848	-0.00174458	3
1037.98	-0.61782	-0.00181022	3
1041.98	-0.637861	-0.0018928	3
1045.98	-0.657861	-0.0019822	3
1049.98	-0.677876	-0.00209541	3
1053.98	-0.697786	-0.00221063	3
1057.98	-0.717805	-0.00235944	3
1061.98	-0.737889	-0.00255156	3
1065.98	-0.757849	-0.00278239	3
1069.98	-0.777859	-0.00308161	3
1073.98	-0.797833	-0.00345125	3
1078.11	-0.8185	-0.0039189	3
1082.11	-0.838507	-0.0044598	3
1086.11	-0.858492	-0.00511114	3
1090.11	-0.878467	-0.00587467	3
1094.11	-0.898524	-0.00678196	3
1098.01	-0.918018	-0.00781268	3
1100.66	-0.907182	-0.00408651	3
1104.66	-0.887127	-0.00250808	3
1108.66	-0.867176	-0.00157738	3
1112.66	-0.847165	-0.000922854	3
1116.66	-0.82723	-0.000435772	3
1120.79	-0.806545	-5.47486e-05	3
1124.79	-0.786535	0.000198461	3
1128.79	-0.766543	0.0003633	3
1132.79	-0.746551	0.000457753	3
1136.79	-0.72645	0.000506638	3
1140.79	-0.706559	0.000530535	3
1144.79	-0.686482	0.000540824	3
1148.79	-0.666494	0.000544315	3
1152.79	-0.646489	0.000560433	3
1156.79	-0.626508	0.000579484	3
1160.79	-0.606485	0.000589535	3
1164.79	-0.586468	0.000581345	3
1168.79	-0.566491	0.000616173	3
1172.92	-0.54587	0.000624185	3
1176.92	-0.525791	0.000634215	3
1180.92	-0.505808	0.00062391	3
1184.92	-0.485828	0.000637178	3
1188.92	-0.465837	0.000628332	3
1192.92	-0.445846	0.000614625	3
1196.92	-0.425901	0.00059882	3
1200.92	-0.405891	0.00058469	3
1204.92	-0.385894	0.000574327	3
1208.92	-0.365846	0.000530739	3
1212.92	-0.345861	0.000549642	3
1216.92	-0.325905	0.000576437	3
1220.92	-0.305856	0.000596142	3
1224.92	-0.285812	0.00058011	3
1229.05	-0.265204	0.000640597	3
1233.05	-0.24521	0.00067377	3
1237.05	-0.225187	0.000709056	3
1241.18	-0.204534	0.000747472	3
1245.18	-0.184509	0.000734487	3
1249.18	-0.164545	0.000830684	3
1253.18	-0.144574	0.000883379	3
1257.31	-0.123908	0.00094983	3
1261.31	-0.103882	0.00102671	3
1265.31	-0.083877	0.00110708	3
1269.48	-0.0631292	0.0011527	3
1273.71	-0.0418946	0.00143508	3
1277.71	-0.0218657	0.00165358	3
1281.71	-0.00188842	0.00193305	3
1285.91	0.0191292	0.00232313	3
1289.91	0.039107	0.00280483	3
1293.91	0.0591547	0.00349625	3
1297.91	0.0791181	0.00463041	3
1298.21	0.0810346	0.00971504	3